 # E(MeV)  SigT  SigInela  SigEla  (mb)
    1.00        0.00        0.00        0.00    
    1.26        0.00        0.00        0.00    
    1.58        0.00        0.00        0.00    
    2.00        223.        223.        0.00    
    2.51        411.        411.        0.00    
    3.16        559.        559.        0.00    
    3.98        675.        675.        0.00    
    5.01        767.        767.        0.00    
    6.31        840.        840.        0.00    
    7.94        891.        891.        0.00    
    10.0        931.        931.        0.00    
    12.6        956.        956.        0.00    
    15.8        977.        977.        0.00    
    20.0        989.        989.        0.00    
    25.1        992.        992.        0.00    
    31.6        980.        980.        0.00    
    39.8        979.        979.        0.00    
    50.1        957.        957.        0.00    
    63.1        924.        924.        0.00    
    79.4        873.        873.        0.00    
    100.        781.        781.        0.00    
    126.        648.        648.        0.00    
    158.        603.        603.        0.00    
    200.        570.        570.        0.00    
    251.        514.        514.        0.00    
    316.        465.        465.        0.00    
    398.        453.        453.        0.00    
    501.        436.        436.        0.00    
    631.        434.        434.        0.00    
    794.        439.        439.        0.00    
   1.000E+03    457.        457.        0.00    
   1.259E+03    468.        468.        0.00    
   1.585E+03    475.        475.        0.00    
   1.995E+03    475.        475.        0.00    
   2.512E+03    466.        466.        0.00    
   3.162E+03    462.        462.        0.00    
   3.981E+03    454.        454.        0.00    
   5.012E+03    454.        454.        0.00    
   6.310E+03    454.        454.        0.00    
   7.943E+03    454.        454.        0.00    
   1.000E+04    453.        453.        0.00    
   1.259E+04    453.        453.        0.00    
   1.585E+04    453.        453.        0.00    
   1.995E+04    453.        453.        0.00    
   2.512E+04    453.        453.        0.00    
   3.162E+04    453.        453.        0.00    
   3.981E+04    453.        453.        0.00    
   5.012E+04    453.        453.        0.00    
   6.310E+04    453.        453.        0.00    
   7.943E+04    452.        452.        0.00    
   1.000E+05    452.        452.        0.00    
   1.259E+05    452.        452.        0.00    
   1.585E+05    452.        452.        0.00    
   1.995E+05    452.        452.        0.00    
   2.512E+05    452.        452.        0.00    
   3.162E+05    452.        452.        0.00    
   3.981E+05    452.        452.        0.00    
   5.012E+05    452.        452.        0.00    
   6.310E+05    452.        452.        0.00    
   7.943E+05    452.        452.        0.00    
   1.000E+06    452.        452.        0.00    
   1.259E+06    452.        452.        0.00    
   1.585E+06    452.        452.        0.00    
   1.995E+06    452.        452.        0.00    
   2.512E+06    452.        452.        0.00    
   3.162E+06    452.        452.        0.00    
   3.981E+06    452.        452.        0.00    
   5.012E+06    452.        452.        0.00    
   6.310E+06    452.        452.        0.00    
   7.943E+06    452.        452.        0.00    
   1.000E+07    452.        452.        0.00    
   1.259E+07    452.        452.        0.00    
   1.585E+07    452.        452.        0.00    
   1.995E+07    452.        452.        0.00    
   2.512E+07    452.        452.        0.00    
   3.162E+07    452.        452.        0.00    
   3.981E+07    452.        452.        0.00    
   5.012E+07    452.        452.        0.00    
   6.310E+07    452.        452.        0.00    
   7.943E+07    452.        452.        0.00    
   1.000E+08    452.        452.        0.00    
   1.259E+08    452.        452.        0.00    
   1.585E+08    452.        452.        0.00    
   1.995E+08    452.        452.        0.00    
   2.512E+08    452.        452.        0.00    
   3.162E+08    452.        452.        0.00    
   3.981E+08    452.        452.        0.00    
   5.012E+08    452.        452.        0.00    
   6.310E+08    452.        452.        0.00    
   7.943E+08    452.        452.        0.00    
   1.000E+09    452.        452.        0.00    
   1.259E+09    452.        452.        0.00    
   1.585E+09    452.        452.        0.00    
   1.995E+09    452.        452.        0.00    
   2.512E+09    452.        452.        0.00    
   3.162E+09    452.        452.        0.00    
   3.981E+09    452.        452.        0.00    
