 # E(MeV)  SigT  SigInela  SigEla  (mb)
    1.00        0.00        0.00        0.00    
    1.26        0.00        0.00        0.00    
    1.58        0.00        0.00        0.00    
    2.00        0.00        0.00        0.00    
    2.51        0.00        0.00        0.00    
    3.16        0.00        0.00        0.00    
    3.98        262.        262.        0.00    
    5.01        487.        487.        0.00    
    6.31        665.        665.        0.00    
    7.94        801.        801.        0.00    
    10.0        906.        906.        0.00    
    12.6        984.        984.        0.00    
    15.8       1.046E+03   1.046E+03    0.00    
    20.0       1.090E+03   1.090E+03    0.00    
    25.1       1.118E+03   1.118E+03    0.00    
    31.6       1.124E+03   1.124E+03    0.00    
    39.8       1.138E+03   1.138E+03    0.00    
    50.1       1.126E+03   1.126E+03    0.00    
    63.1       1.100E+03   1.100E+03    0.00    
    79.4       1.051E+03   1.051E+03    0.00    
    100.        955.        955.        0.00    
    126.        812.        812.        0.00    
    158.        764.        764.        0.00    
    200.        728.        728.        0.00    
    251.        667.        667.        0.00    
    316.        612.        612.        0.00    
    398.        599.        599.        0.00    
    501.        579.        579.        0.00    
    631.        578.        578.        0.00    
    794.        585.        585.        0.00    
   1.000E+03    606.        606.        0.00    
   1.259E+03    618.        618.        0.00    
   1.585E+03    626.        626.        0.00    
   1.995E+03    626.        626.        0.00    
   2.512E+03    616.        616.        0.00    
   3.162E+03    612.        612.        0.00    
   3.981E+03    602.        602.        0.00    
   5.012E+03    602.        602.        0.00    
   6.310E+03    602.        602.        0.00    
   7.943E+03    602.        602.        0.00    
   1.000E+04    602.        602.        0.00    
   1.259E+04    602.        602.        0.00    
   1.585E+04    602.        602.        0.00    
   1.995E+04    601.        601.        0.00    
   2.512E+04    601.        601.        0.00    
   3.162E+04    601.        601.        0.00    
   3.981E+04    601.        601.        0.00    
   5.012E+04    601.        601.        0.00    
   6.310E+04    601.        601.        0.00    
   7.943E+04    601.        601.        0.00    
   1.000E+05    601.        601.        0.00    
   1.259E+05    601.        601.        0.00    
   1.585E+05    601.        601.        0.00    
   1.995E+05    600.        600.        0.00    
   2.512E+05    600.        600.        0.00    
   3.162E+05    600.        600.        0.00    
   3.981E+05    600.        600.        0.00    
   5.012E+05    600.        600.        0.00    
   6.310E+05    600.        600.        0.00    
   7.943E+05    600.        600.        0.00    
   1.000E+06    600.        600.        0.00    
   1.259E+06    600.        600.        0.00    
   1.585E+06    600.        600.        0.00    
   1.995E+06    600.        600.        0.00    
   2.512E+06    600.        600.        0.00    
   3.162E+06    600.        600.        0.00    
   3.981E+06    600.        600.        0.00    
   5.012E+06    600.        600.        0.00    
   6.310E+06    600.        600.        0.00    
   7.943E+06    600.        600.        0.00    
   1.000E+07    600.        600.        0.00    
   1.259E+07    600.        600.        0.00    
   1.585E+07    600.        600.        0.00    
   1.995E+07    600.        600.        0.00    
   2.512E+07    600.        600.        0.00    
   3.162E+07    600.        600.        0.00    
   3.981E+07    600.        600.        0.00    
   5.012E+07    600.        600.        0.00    
   6.310E+07    600.        600.        0.00    
   7.943E+07    600.        600.        0.00    
   1.000E+08    600.        600.        0.00    
   1.259E+08    600.        600.        0.00    
   1.585E+08    600.        600.        0.00    
   1.995E+08    600.        600.        0.00    
   2.512E+08    600.        600.        0.00    
   3.162E+08    600.        600.        0.00    
   3.981E+08    600.        600.        0.00    
   5.012E+08    600.        600.        0.00    
   6.310E+08    600.        600.        0.00    
   7.943E+08    600.        600.        0.00    
   1.000E+09    600.        600.        0.00    
   1.259E+09    600.        600.        0.00    
   1.585E+09    600.        600.        0.00    
   1.995E+09    600.        600.        0.00    
   2.512E+09    600.        600.        0.00    
   3.162E+09    600.        600.        0.00    
   3.981E+09    600.        600.        0.00    
